File: data/dawn1_flight1_log/log_battery_status_1.csv
timestamp,voltage_v,voltage_filtered_v,current_a,current_filtered_a,current_average_a,discharged_mah,remaining,scale,time_remaining_s,temperature,voltage_cell_v[0],voltage_cell_v[1],voltage_cell_v[2],voltage_cell_v[3],voltage_cell_v[4],voltage_cell_v[5],voltage_cell_v[6],voltage_cell_v[7],voltage_cell_v[8],voltage_cell_v[9],voltage_cell_v[10],voltage_cell_v[11],voltage_cell_v[12],voltage_cell_v[13],max_cell_voltage_delta,custom_faults,average_power,available_energy,full_charge_capacity_wh,remaining_capacity_wh,design_capacity,nominal_voltage,capacity,cycle_count,average_time_to_empty,serial_number,manufacture_date,state_of_health,max_error,interface_error,faults,average_time_to_full,over_discharge_count,connected,cell_count,source,priority,id,is_powering_off,is_required,warning,mode
16808664,50.25,50.25,0.115906,0.115906,0.115906,0.339773,0.98,0.0,nan,23.35,50.25,0.0,0.0,0.0,0.0,0.0,0.0,0.0,0.0,0.0,0.0,0.0,0.0,0.0,0.0,0,0.0,0.0,0.0,0.0,0.0,0.0,0,0,0,0,0,0,0,0,0,0,0,1,1,1,0,125,0,0,0,0
17607370,50.25,50.25,0.1159668,0.1159668,0.1159668,0.357268,0.98,0.0,nan,23.35,50.25,0.0,0.0,0.0,0.0,0.0,0.0,0.0,0.0,0.0,0.0,0.0,0.0,0.0,0.0,0,0.0,0.0,0.0,0.0,0.0,0.0,0,0,0,0,0,0,0,0,0,0,0,1,1,1,0,125,0,0,0,0
18403929,50.25,50.25,0.1159668,0.1159668,0.1159668,0.374726,0.98,0.0,nan,23.35,50.25,0.0,0.0,0.0,0.0,0.0,0.0,0.0,0.0,0.0,0.0,0.0,0.0,0.0,0.0,0,0.0,0.0,0.0,0.0,0.0,0.0,0,0,0,0,0,0,0,0,0,0,0,1,1,1,0,125,0,0,0,0
19202272,50.25,50.25,0.116028,0.116028,0.116028,0.392251,0.98,0.0,nan,23.6,50.25,0.0,0.0,0.0,0.0,0.0,0.0,0.0,0.0,0.0,0.0,0.0,0.0,0.0,0.0,0,0.0,0.0,0.0,0.0,0.0,0.0,0,0,0,0,0,0,0,0,0,0,0,1,1,1,0,125,0,0,0,0
20000355,50.25,50.25,0.1161499,0.1161499,0.1161499,0.4098319,0.98,0.0,nan,23.6,50.25,0.0,0.0,0.0,0.0,0.0,0.0,0.0,0.0,0.0,0.0,0.0,0.0,0.0,0.0,0,0.0,0.0,0.0,0.0,0.0,0.0,0,0,0,0,0,0,0,0,0,0,0,1,1,1,0,125,0,0,0,0
20996209,50.25,50.25,0.116333,0.116333,0.116333,0.431587,0.98,0.0,nan,23.6,50.25,0.0,0.0,0.0,0.0,0.0,0.0,0.0,0.0,0.0,0.0,0.0,0.0,0.0,0.0,0,0.0,0.0,0.0,0.0,0.0,0.0,0,0,0,0,0,0,0,0,0,0,0,1,1,1,0,125,0,0,0,0
21793836,50.25,50.25,0.115845,0.115845,0.115845,0.449189,0.98,0.0,nan,23.6,50.25,0.0,0.0,0.0,0.0,0.0,0.0,0.0,0.0,0.0,0.0,0.0,0.0,0.0,0.0,0,0.0,0.0,0.0,0.0,0.0,0.0,0,0,0,0,0,0,0,0,0,0,0,1,1,1,0,125,0,0,0,0
22591467,50.25,50.25,0.116089,0.116089,0.116089,0.4667201,0.98,0.0,nan,23.6,50.25,0.0,0.0,0.0,0.0,0.0,0.0,0.0,0.0,0.0,0.0,0.0,0.0,0.0,0.0,0,0.0,0.0,0.0,0.0,0.0,0.0,0,0,0,0,0,0,0,0,0,0,0,1,1,1,0,125,0,0,0,0
23389100,50.25,50.25,0.1161499,0.1161499,0.1161499,0.484287,0.98,0.0,nan,23.6,50.25,0.0,0.0,0.0,0.0,0.0,0.0,0.0,0.0,0.0,0.0,0.0,0.0,0.0,0.0,0,0.0,0.0,0.0,0.0,0.0,0.0,0,0,0,0,0,0,0,0,0,0,0,1,1,1,0,125,0,0,0,0
24188146,50.15625,50.15625,5.73047,5.73047,5.73047,0.6376809,0.96,0.0,nan,23.6,50.15625,0.0,0.0,0.0,0.0,0.0,0.0,0.0,0.0,0.0,0.0,0.0,0.0,0.0,0.0,0,0.0,0.0,0.0,0.0,0.0,0.0,0,0,0,0,0,0,0,0,0,0,0,1,1,1,0,125,0,0,0,0
24984345,50.125,50.125,6.27734,6.27734,6.27734,0.749591,0.96,0.0,nan,23.6,50.125,0.0,0.0,0.0,0.0,0.0,0.0,0.0,0.0,0.0,0.0,0.0,0.0,0.0,0.0,0,0.0,0.0,0.0,0.0,0.0,0.0,0,0,0,0,0,0,0,0,0,0,0,1,1,1,0,125,0,0,0,0
25781980,50.1875,50.1875,3.16992,3.16992,3.16992,0.828781,0.97,0.0,nan,23.6,50.1875,0.0,0.0,0.0,0.0,0.0,0.0,0.0,0.0,0.0,0.0,0.0,0.0,0.0,0.0,0,0.0,0.0,0.0,0.0,0.0,0.0,0,0,0,0,0,0,0,0,0,0,0,1,1,1,0,125,0,0,0,0
26581037,50.1875,50.1875,3.03906,3.03906,3.03906,0.902612,0.97,0.0,nan,23.6,50.1875,0.0,0.0,0.0,0.0,0.0,0.0,0.0,0.0,0.0,0.0,0.0,0.0,0.0,0.0,0,0.0,0.0,0.0,0.0,0.0,0.0,0,0,0,0,0,0,0,0,0,0,0,1,1,1,0,125,0,0,0,0
27377234,50.1875,50.1875,3.21289,3.21289,3.21289,0.9758229,0.97,0.0,nan,23.6,50.1875,0.0,0.0,0.0,0.0,0.0,0.0,0.0,0.0,0.0,0.0,0.0,0.0,0.0,0.0,0,0.0,0.0,0.0,0.0,0.0,0.0,0,0,0,0,0,0,0,0,0,0,0,1,1,1,0,125,0,0,0,0
28175601,50.1875,50.1875,3.27148,3.27148,3.27148,1.05297,0.97,0.0,nan,23.6,50.1875,0.0,0.0,0.0,0.0,0.0,0.0,0.0,0.0,0.0,0.0,0.0,0.0,0.0,0.0,0,0.0,0.0,0.0,0.0,0.0,0.0,0,0,0,0,0,0,0,0,0,0,0,1,1,1,0,125,0,0,0,0
28972489,50.1875,50.1875,3.21875,3.21875,3.21875,1.12767,0.97,0.0,nan,23.6,50.1875,0.0,0.0,0.0,0.0,0.0,0.0,0.0,0.0,0.0,0.0,0.0,0.0,0.0,0.0,0,0.0,0.0,0.0,0.0,0.0,0.0,0,0,0,0,0,0,0,0,0,0,0,1,1,1,0,125,0,0,0,0
29770122,50.1875,50.1875,3.22656,3.22656,3.22656,1.20461,0.97,0.0,nan,23.6,50.1875,0.0,0.0,0.0,0.0,0.0,0.0,0.0,0.0,0.0,0.0,0.0,0.0,0.0,0.0,0,0.0,0.0,0.0,0.0,0.0,0.0,0,0,0,0,0,0,0,0,0,0,0,1,1,1,0,125,0,0,0,0
30567739,50.1875,50.1875,3.21875,3.21875,3.21875,1.28505,0.97,0.0,nan,23.6,50.1875,0.0,0.0,0.0,0.0,0.0,0.0,0.0,0.0,0.0,0.0,0.0,0.0,0.0,0.0,0,0.0,0.0,0.0,0.0,0.0,0.0,0,0,0,0,0,0,0,0,0,0,0,1,1,1,0,125,0,0,0,0
31365366,50.1875,50.1875,3.26758,3.26758,3.26758,1.3686,0.97,0.0,nan,23.6,50.1875,0.0,0.0,0.0,0.0,0.0,0.0,0.0,0.0,0.0,0.0,0.0,0.0,0.0,0.0,0,0.0,0.0,0.0,0.0,0.0,0.0,0,0,0,0,0,0,0,0,0,0,0,1,1,1,0,125,0,0,0,0
32163718,50.1875,50.1875,3.27539,3.27539,3.27539,1.45202,0.97,0.0,nan,23.6,50.1875,0.0,0.0,0.0,0.0,0.0,0.0,0.0,0.0,0.0,0.0,0.0,0.0,0.0,0.0,0,0.0,0.0,0.0,0.0,0.0,0.0,0,0,0,0,0,0,0,0,0,0,0,1,1,1,0,125,0,0,0,0
32960665,50.1875,50.1875,3.23242,3.23242,3.23242,1.53431,0.97,0.0,nan,23.6,50.1875,0.0,0.0,0.0,0.0,0.0,0.0,0.0,0.0,0.0,0.0,0.0,0.0,0.0,0.0,0,0.0,0.0,0.0,0.0,0.0,0.0,0,0,0,0,0,0,0,0,0,0,0,1,1,1,0,125,0,0,0,0
33759353,50.1875,50.1875,3.20117,3.20117,3.20117,1.62061,0.97,0.0,nan,23.6,50.1875,0.0,0.0,0.0,0.0,0.0,0.0,0.0,0.0,0.0,0.0,0.0,0.0,0.0,0.0,0,0.0,0.0,0.0,0.0,0.0,0.0,0,0,0,0,0,0,0,0,0,0,0,1,1,1,0,125,0,0,0,0
34556872,50.0625,50.0625,10.4609,10.4609,10.4609,1.7473,0.95,0.0,nan,23.6,50.0625,0.0,0.0,0.0,0.0,0.0,0.0,0.0,0.0,0.0,0.0,0.0,0.0,0.0,0.0,0,0.0,0.0,0.0,0.0,0.0,0.0,0,0,0,0,0,0,0,0,0,0,0,1,1,1,0,125,0,0,0,0
35353511,50.03125,50.03125,11.21875,11.21875,11.21875,2.03109,0.95,0.0,nan,23.6,50.03125,0.0,0.0,0.0,0.0,0.0,0.0,0.0,0.0,0.0,0.0,0.0,0.0,0.0,0.0,0,0.0,0.0,0.0,0.0,0.0,0.0,0,0,0,0,0,0,0,0,0,0,0,1,1,1,0,125,0,0,0,0
36151863,49.15625,49.15625,60.09375,60.09375,60.09375,2.74474,0.85,0.0,nan,23.6,49.15625,0.0,0.0,0.0,0.0,0.0,0.0,0.0,0.0,0.0,0.0,0.0,0.0,0.0,0.0,0,0.0,0.0,0.0,0.0,0.0,0.0,0,0,0,0,0,0,0,0,0,0,0,1,1,1,0,125,0,0,0,0
36949307,48.78125,48.78125,77.5,77.5,77.5,4.327176,0.8,0.0,nan,23.6,48.78125,0.0,0.0,0.0,0.0,0.0,0.0,0.0,0.0,0.0,0.0,0.0,0.0,0.0,0.0,0,0.0,0.0,0.0,0.0,0.0,0.0,0,0,0,0,0,0,0,0,0,0,0,1,1,1,0,125,0,0,0,0
37746386,48.15625,48.15625,111.1875,111.1875,111.1875,6.748566,0.73,0.0,nan,23.6,48.15625,0.0,0.0,0.0,0.0,0.0,0.0,0.0,0.0,0.0,0.0,0.0,0.0,0.0,0.0,0,0.0,0.0,0.0,0.0,0.0,0.0,0,0,0,0,0,0,0,0,0,0,0,1,1,1,0,125,0,0,0,0
38545451,47.84375,47.84375,122.625,122.625,122.625,9.63702,0.69,0.0,nan,23.85,47.84375,0.0,0.0,0.0,0.0,0.0,0.0,0.0,0.0,0.0,0.0,0.0,0.0,0.0,0.0,0,0.0,0.0,0.0,0.0,0.0,0.0,0,0,0,0,0,0,0,0,0,0,0,1,1,1,0,125,0,0,0,0
39341663,47.8125,47.8125,121.0625,121.0625,121.0625,12.5283,0.69,0.0,nan,24.1,47.8125,0.0,0.0,0.0,0.0,0.0,0.0,0.0,0.0,0.0,0.0,0.0,0.0,0.0,0.0,0,0.0,0.0,0.0,0.0,0.0,0.0,0,0,0,0,0,0,0,0,0,0,0,1,1,1,0,125,0,0,0,0
40140002,47.75,47.75,119.8125,119.8125,119.8125,15.5126,0.68,0.0,nan,24.35,47.75,0.0,0.0,0.0,0.0,0.0,0.0,0.0,0.0,0.0,0.0,0.0,0.0,0.0,0.0,0,0.0,0.0,0.0,0.0,0.0,0.0,0,0,0,0,0,0,0,0,0,0,0,1,1,1,0,125,0,0,0,0
40936905,47.71875,47.71875,118.375,118.375,118.375,18.4705,0.68,0.0,nan,24.85,47.71875,0.0,0.0,0.0,0.0,0.0,0.0,0.0,0.0,0.0,0.0,0.0,0.0,0.0,0.0,0,0.0,0.0,0.0,0.0,0.0,0.0,0,0,0,0,0,0,0,0,0,0,0,1,1,1,0,125,0,0,0,0
41735714,49.09375,49.09375,37.53125,37.53125,37.53125,20.2515,0.84,0.0,nan,25.35,49.09375,0.0,0.0,0.0,0.0,0.0,0.0,0.0,0.0,0.0,0.0,0.0,0.0,0.0,0.0,0,0.0,0.0,0.0,0.0,0.0,0.0,0,0,0,0,0,0,0,0,0,0,0,1,1,1,0,125,0,0,0,0
42532182,49.53125,49.53125,14.2656,14.2656,14.2656,21.15743,0.89,0.0,nan,25.85,49.53125,0.0,0.0,0.0,0.0,0.0,0.0,0.0,0.0,0.0,0.0,0.0,0.0,0.0,0.0,0,0.0,0.0,0.0,0.0,0.0,0.0,0,0,0,0,0,0,0,0,0,0,0,1,1,1,0,125,0,0,0,0
43331103,49.59375,49.59375,11.4141,11.4141,11.4141,21.54152,0.9,0.0,nan,26.35,49.59375,0.0,0.0,0.0,0.0,0.0,0.0,0.0,0.0,0.0,0.0,0.0,0.0,0.0,0.0,0,0.0,0.0,0.0,0.0,0.0,0.0,0,0,0,0,0,0,0,0,0,0,0,1,1,1,0,125,0,0,0,0
44128188,49.53125,49.53125,16.7344,16.7344,16.7344,21.9173,0.89,0.0,nan,26.6,49.53125,0.0,0.0,0.0,0.0,0.0,0.0,0.0,0.0,0.0,0.0,0.0,0.0,0.0,0.0,0,0.0,0.0,0.0,0.0,0.0,0.0,0,0,0,0,0,0,0,0,0,0,0,1,1,1,0,125,0,0,0,0
44925198,49.625,49.625,12.8594,12.8594,12.8594,22.3548,0.9,0.0,nan,26.85,49.625,0.0,0.0,0.0,0.0,0.0,0.0,0.0,0.0,0.0,0.0,0.0,0.0,0.0,0.0,0,0.0,0.0,0.0,0.0,0.0,0.0,0,0,0,0,0,0,0,0,0,0,0,1,1,1,0,125,0,0,0,0
45723302,49.625,49.625,13.2656,13.2656,13.2656,22.83348,0.9,0.0,nan,26.85,49.625,0.0,0.0,0.0,0.0,0.0,0.0,0.0,0.0,0.0,0.0,0.0,0.0,0.0,0.0,0,0.0,0.0,0.0,0.0,0.0,0.0,0,0,0,0,0,0,0,0,0,0,0,1,1,1,0,125,0,0,0,0
46520418,49.53125,49.53125,19.6406,19.6406,19.6406,23.27095,0.89,0.0,nan,26.85,49.53125,0.0,0.0,0.0,0.0,0.0,0.0,0.0,0.0,0.0,0.0,0.0,0.0,0.0,0.0,0,0.0,0.0,0.0,0.0,0.0,0.0,0,0,0,0,0,0,0,0,0,0,0,1,1,1,0,125,0,0,0,0
47318063,49.1875,49.1875,40.03125,40.03125,40.03125,23.8988,0.85,0.0,nan,26.85,49.1875,0.0,0.0,0.0,0.0,0.0,0.0,0.0,0.0,0.0,0.0,0.0,0.0,0.0,0.0,0,0.0,0.0,0.0,0.0,0.0,0.0,0,0,0,0,0,0,0,0,0,0,0,1,1,1,0,125,0,0,0,0
48116858,49.3125,49.3125,32.03125,32.03125,32.03125,24.7318,0.87,0.0,nan,26.85,49.3125,0.0,0.0,0.0,0.0,0.0,0.0,0.0,0.0,0.0,0.0,0.0,0.0,0.0,0.0,0,0.0,0.0,0.0,0.0,0.0,0.0,0,0,0,0,0,0,0,0,0,0,0,1,1,1,0,125,0,0,0,0
48913388,49.4375,49.4375,24.8125,24.8125,24.8125,25.6762,0.88,0.0,nan,26.85,49.4375,0.0,0.0,0.0,0.0,0.0,0.0,0.0,0.0,0.0,0.0,0.0,0.0,0.0,0.0,0,0.0,0.0,0.0,0.0,0.0,0.0,0,0,0,0,0,0,0,0,0,0,0,1,1,1,0,125,0,0,0,0
49711121,49.375,49.375,29.4219,29.4219,29.4219,26.2036,0.87,0.0,nan,26.85,49.375,0.0,0.0,0.0,0.0,0.0,0.0,0.0,0.0,0.0,0.0,0.0,0.0,0.0,0.0,0,0.0,0.0,0.0,0.0,0.0,0.0,0,0,0,0,0,0,0,0,0,0,0,1,1,1,0,125,0,0,0,0
50508647,49.78125,49.78125,5.921875,5.921875,5.921875,26.6503,0.92,0.0,nan,26.85,49.78125,0.0,0.0,0.0,0.0,0.0,0.0,0.0,0.0,0.0,0.0,0.0,0.0,0.0,0.0,0,0.0,0.0,0.0,0.0,0.0,0.0,0,0,0,0,0,0,0,0,0,0,0,1,1,1,0,125,0,0,0,0
51306586,49.65625,49.65625,13.5547,13.5547,13.5547,27.196,0.91,0.0,nan,26.85,49.65625,0.0,0.0,0.0,0.0,0.0,0.0,0.0,0.0,0.0,0.0,0.0,0.0,0.0,0.0,0,0.0,0.0,0.0,0.0,0.0,0.0,0,0,0,0,0,0,0,0,0,0,0,1,1,1,0,125,0,0,0,0
52303351,49.6875,49.6875,13.4531,13.4531,13.4531,27.65552,0.91,0.0,nan,26.6,49.6875,0.0,0.0,0.0,0.0,0.0,0.0,0.0,0.0,0.0,0.0,0.0,0.0,0.0,0.0,0,0.0,0.0,0.0,0.0,0.0,0.0,0,0,0,0,0,0,0,0,0,0,0,1,1,1,0,125,0,0,0,0
53101716,49.8125,49.8125,5.52734,5.52734,5.52734,28.0566,0.92,0.0,nan,26.6,49.8125,0.0,0.0,0.0,0.0,0.0,0.0,0.0,0.0,0.0,0.0,0.0,0.0,0.0,0.0,0,0.0,0.0,0.0,0.0,0.0,0.0,0,0,0,0,0,0,0,0,0,0,0,1,1,1,0,125,0,0,0,0
53898667,49.75,49.75,9.796875,9.796875,9.796875,28.3509,0.92,0.0,nan,26.6,49.75,0.0,0.0,0.0,0.0,0.0,0.0,0.0,0.0,0.0,0.0,0.0,0.0,0.0,0.0,0,0.0,0.0,0.0,0.0,0.0,0.0,0,0,0,0,0,0,0,0,0,0,0,1,1,1,0,125,0,0,0,0
54696287,49.75,49.75,9.66406,9.66406,9.66406,28.6794,0.92,0.0,nan,26.6,49.75,0.0,0.0,0.0,0.0,0.0,0.0,0.0,0.0,0.0,0.0,0.0,0.0,0.0,0.0,0,0.0,0.0,0.0,0.0,0.0,0.0,0,0,0,0,0,0,0,0,0,0,0,1,1,1,0,125,0,0,0,0
55493946,49.71875,49.71875,11.7344,11.7344,11.7344,29.2562,0.91,0.0,nan,26.35,49.71875,0.0,0.0,0.0,0.0,0.0,0.0,0.0,0.0,0.0,0.0,0.0,0.0,0.0,0.0,0,0.0,0.0,0.0,0.0,0.0,0.0,0,0,0,0,0,0,0,0,0,0,0,1,1,1,0,125,0,0,0,0
56291576,49.59375,49.59375,19.71875,19.71875,19.71875,29.6769,0.9,0.0,nan,26.35,49.59375,0.0,0.0,0.0,0.0,0.0,0.0,0.0,0.0,0.0,0.0,0.0,0.0,0.0,0.0,0,0.0,0.0,0.0,0.0,0.0,0.0,0,0,0,0,0,0,0,0,0,0,0,1,1,1,0,125,0,0,0,0
57090061,49.71875,49.71875,12.4844,12.4844,12.4844,30.15236,0.91,0.0,nan,26.35,49.71875,0.0,0.0,0.0,0.0,0.0,0.0,0.0,0.0,0.0,0.0,0.0,0.0,0.0,0.0,0,0.0,0.0,0.0,0.0,0.0,0.0,0,0,0,0,0,0,0,0,0,0,0,1,1,1,0,125,0,0,0,0
57887010,49.625,49.625,17.4375,17.4375,17.4375,30.7956,0.9,0.0,nan,26.35,49.625,0.0,0.0,0.0,0.0,0.0,0.0,0.0,0.0,0.0,0.0,0.0,0.0,0.0,0.0,0,0.0,0.0,0.0,0.0,0.0,0.0,0,0,0,0,0,0,0,0,0,0,0,1,1,1,0,125,0,0,0,0
58684701,49.71875,49.71875,12.4531,12.4531,12.4531,31.2446,0.91,0.0,nan,26.35,49.71875,0.0,0.0,0.0,0.0,0.0,0.0,0.0,0.0,0.0,0.0,0.0,0.0,0.0,0.0,0,0.0,0.0,0.0,0.0,0.0,0.0,0,0,0,0,0,0,0,0,0,0,0,1,1,1,0,125,0,0,0,0
59482156,49.75,49.75,11.6484,11.6484,11.6484,31.5765,0.92,0.0,nan,26.1,49.75,0.0,0.0,0.0,0.0,0.0,0.0,0.0,0.0,0.0,0.0,0.0,0.0,0.0,0.0,0,0.0,0.0,0.0,0.0,0.0,0.0,0,0,0,0,0,0,0,0,0,0,0,1,1,1,0,125,0,0,0,0
60281318,49.5625,49.5625,22.0,22.0,22.0,32.1463,0.9,0.0,nan,26.1,49.5625,0.0,0.0,0.0,0.0,0.0,0.0,0.0,0.0,0.0,0.0,0.0,0.0,0.0,0.0,0,0.0,0.0,0.0,0.0,0.0,0.0,0,0,0,0,0,0,0,0,0,0,0,1,1,1,0,125,0,0,0,0
61078148,49.59375,49.59375,20.15625,20.15625,20.15625,32.9447,0.9,0.0,nan,26.1,49.59375,0.0,0.0,0.0,0.0,0.0,0.0,0.0,0.0,0.0,0.0,0.0,0.0,0.0,0.0,0,0.0,0.0,0.0,0.0,0.0,0.0,0,0,0,0,0,0,0,0,0,0,0,1,1,1,0,125,0,0,0,0
61875252,49.75,49.75,11.03125,11.03125,11.03125,33.4028,0.92,0.0,nan,26.1,49.75,0.0,0.0,0.0,0.0,0.0,0.0,0.0,0.0,0.0,0.0,0.0,0.0,0.0,0.0,0,0.0,0.0,0.0,0.0,0.0,0.0,0,0,0,0,0,0,0,0,0,0,0,1,1,1,0,125,0,0,0,0
62672707,49.6875,49.6875,15.2969,15.2969,15.2969,33.8583,0.91,0.0,nan,26.1,49.6875,0.0,0.0,0.0,0.0,0.0,0.0,0.0,0.0,0.0,0.0,0.0,0.0,0.0,0.0,0,0.0,0.0,0.0,0.0,0.0,0.0,0,0,0,0,0,0,0,0,0,0,0,1,1,1,0,125,0,0,0,0
63470345,49.71875,49.71875,13.2344,13.2344,13.2344,34.3071,0.91,0.0,nan,26.1,49.71875,0.0,0.0,0.0,0.0,0.0,0.0,0.0,0.0,0.0,0.0,0.0,0.0,0.0,0.0,0,0.0,0.0,0.0,0.0,0.0,0.0,0,0,0,0,0,0,0,0,0,0,0,1,1,1,0,125,0,0,0,0
64268970,49.65625,49.65625,16.1719,16.1719,16.1719,34.8034,0.91,0.0,nan,26.1,49.65625,0.0,0.0,0.0,0.0,0.0,0.0,0.0,0.0,0.0,0.0,0.0,0.0,0.0,0.0,0,0.0,0.0,0.0,0.0,0.0,0.0,0,0,0,0,0,0,0,0,0,0,0,1,1,1,0,125,0,0,0,0
65066350,49.78125,49.78125,9.78906,9.78906,9.78906,35.209,0.92,0.0,nan,26.1,49.78125,0.0,0.0,0.0,0.0,0.0,0.0,0.0,0.0,0.0,0.0,0.0,0.0,0.0,0.0,0,0.0,0.0,0.0,0.0,0.0,0.0,0,0,0,0,0,0,0,0,0,0,0,1,1,1,0,125,0,0,0,0
65863486,49.65625,49.65625,17.5156,17.5156,17.5156,35.6736,0.91,0.0,nan,26.1,49.65625,0.0,0.0,0.0,0.0,0.0,0.0,0.0,0.0,0.0,0.0,0.0,0.0,0.0,0.0,0,0.0,0.0,0.0,0.0,0.0,0.0,0,0,0,0,0,0,0,0,0,0,0,1,1,1,0,125,0,0,0,0
66660898,49.53125,49.53125,25.53125,25.53125,25.53125,36.2795,0.89,0.0,nan,25.85,49.53125,0.0,0.0,0.0,0.0,0.0,0.0,0.0,0.0,0.0,0.0,0.0,0.0,0.0,0.0,0,0.0,0.0,0.0,0.0,0.0,0.0,0,0,0,0,0,0,0,0,0,0,0,1,1,1,0,125,0,0,0,0
67458546,49.65625,49.65625,17.78125,17.78125,17.78125,36.8706,0.91,0.0,nan,25.85,49.65625,0.0,0.0,0.0,0.0,0.0,0.0,0.0,0.0,0.0,0.0,0.0,0.0,0.0,0.0,0,0.0,0.0,0.0,0.0,0.0,0.0,0,0,0,0,0,0,0,0,0,0,0,1,1,1,0,125,0,0,0,0
68256188,49.65625,49.65625,16.1094,16.1094,16.1094,37.51389,0.91,0.0,nan,25.85,49.65625,0.0,0.0,0.0,0.0,0.0,0.0,0.0,0.0,0.0,0.0,0.0,0.0,0.0,0.0,0,0.0,0.0,0.0,0.0,0.0,0.0,0,0,0,0,0,0,0,0,0,0,0,1,1,1,0,125,0,0,0,0
69054557,49.6875,49.6875,15.78125,15.78125,15.78125,38.1569,0.91,0.0,nan,25.85,49.6875,0.0,0.0,0.0,0.0,0.0,0.0,0.0,0.0,0.0,0.0,0.0,0.0,0.0,0.0,0,0.0,0.0,0.0,0.0,0.0,0.0,0,0,0,0,0,0,0,0,0,0,0,1,1,1,0,125,0,0,0,0
69852866,49.65625,49.65625,16.4375,16.4375,16.4375,38.7489,0.91,0.0,nan,25.85,49.65625,0.0,0.0,0.0,0.0,0.0,0.0,0.0,0.0,0.0,0.0,0.0,0.0,0.0,0.0,0,0.0,0.0,0.0,0.0,0.0,0.0,0,0,0,0,0,0,0,0,0,0,0,1,1,1,0,125,0,0,0,0
70649102,49.75,49.75,12.0156,12.0156,12.0156,39.2977,0.92,0.0,nan,25.85,49.75,0.0,0.0,0.0,0.0,0.0,0.0,0.0,0.0,0.0,0.0,0.0,0.0,0.0,0.0,0,0.0,0.0,0.0,0.0,0.0,0.0,0,0,0,0,0,0,0,0,0,0,0,1,1,1,0,125,0,0,0,0
71446739,49.6875,49.6875,14.9453,14.9453,14.9453,39.9109,0.91,0.0,nan,25.85,49.6875,0.0,0.0,0.0,0.0,0.0,0.0,0.0,0.0,0.0,0.0,0.0,0.0,0.0,0.0,0,0.0,0.0,0.0,0.0,0.0,0.0,0,0,0,0,0,0,0,0,0,0,0,1,1,1,0,125,0,0,0,0
72244388,49.6875,49.6875,15.0703,15.0703,15.0703,40.4495,0.91,0.0,nan,25.85,49.6875,0.0,0.0,0.0,0.0,0.0,0.0,0.0,0.0,0.0,0.0,0.0,0.0,0.0,0.0,0,0.0,0.0,0.0,0.0,0.0,0.0,0,0,0,0,0,0,0,0,0,0,0,1,1,1,0,125,0,0,0,0
73042746,49.8125,49.8125,9.05469,9.05469,9.05469,40.87156,0.92,0.0,nan,25.85,49.8125,0.0,0.0,0.0,0.0,0.0,0.0,0.0,0.0,0.0,0.0,0.0,0.0,0.0,0.0,0,0.0,0.0,0.0,0.0,0.0,0.0,0,0,0,0,0,0,0,0,0,0,0,1,1,1,0,125,0,0,0,0
73839671,49.8125,49.8125,7.953125,7.953125,7.953125,41.3269,0.93,0.0,nan,25.85,49.8125,0.0,0.0,0.0,0.0,0.0,0.0,0.0,0.0,0.0,0.0,0.0,0.0,0.0,0.0,0,0.0,0.0,0.0,0.0,0.0,0.0,0,0,0,0,0,0,0,0,0,0,0,1,1,1,0,125,0,0,0,0
74637306,49.59375,49.59375,20.125,20.125,20.125,41.99166,0.9,0.0,nan,25.85,49.59375,0.0,0.0,0.0,0.0,0.0,0.0,0.0,0.0,0.0,0.0,0.0,0.0,0.0,0.0,0,0.0,0.0,0.0,0.0,0.0,0.0,0,0,0,0,0,0,0,0,0,0,0,1,1,1,0,125,0,0,0,0
75435076,49.6875,49.6875,16.1875,16.1875,16.1875,42.3564,0.91,0.0,nan,25.85,49.6875,0.0,0.0,0.0,0.0,0.0,0.0,0.0,0.0,0.0,0.0,0.0,0.0,0.0,0.0,0,0.0,0.0,0.0,0.0,0.0,0.0,0,0,0,0,0,0,0,0,0,0,0,1,1,1,0,125,0,0,0,0
76232677,49.875,49.875,4.85156,4.85156,4.85156,42.69687,0.93,0.0,nan,25.85,49.875,0.0,0.0,0.0,0.0,0.0,0.0,0.0,0.0,0.0,0.0,0.0,0.0,0.0,0.0,0,0.0,0.0,0.0,0.0,0.0,0.0,0,0,0,0,0,0,0,0,0,0,0,1,1,1,0,125,0,0,0,0
77031148,49.90625,49.90625,4.04297,4.04297,4.04297,43.15303,0.94,0.0,nan,25.85,49.90625,0.0,0.0,0.0,0.0,0.0,0.0,0.0,0.0,0.0,0.0,0.0,0.0,0.0,0.0,0,0.0,0.0,0.0,0.0,0.0,0.0,0,0,0,0,0,0,0,0,0,0,0,1,1,1,0,125,0,0,0,0
77827874,49.875,49.875,4.984375,4.984375,4.984375,43.51582,0.93,0.0,nan,25.85,49.875,0.0,0.0,0.0,0.0,0.0,0.0,0.0,0.0,0.0,0.0,0.0,0.0,0.0,0.0,0,0.0,0.0,0.0,0.0,0.0,0.0,0,0,0,0,0,0,0,0,0,0,0,1,1,1,0,125,0,0,0,0
78625512,49.59375,49.59375,21.5781,21.5781,21.5781,44.0989,0.9,0.0,nan,25.6,49.59375,0.0,0.0,0.0,0.0,0.0,0.0,0.0,0.0,0.0,0.0,0.0,0.0,0.0,0.0,0,0.0,0.0,0.0,0.0,0.0,0.0,0,0,0,0,0,0,0,0,0,0,0,1,1,1,0,125,0,0,0,0
79423140,49.71875,49.71875,14.9922,14.9922,14.9922,44.8011,0.91,0.0,nan,25.6,49.71875,0.0,0.0,0.0,0.0,0.0,0.0,0.0,0.0,0.0,0.0,0.0,0.0,0.0,0.0,0,0.0,0.0,0.0,0.0,0.0,0.0,0,0,0,0,0,0,0,0,0,0,0,1,1,1,0,125,0,0,0,0
80220786,49.71875,49.71875,12.8516,12.8516,12.8516,45.5673,0.92,0.0,nan,25.6,49.71875,0.0,0.0,0.0,0.0,0.0,0.0,0.0,0.0,0.0,0.0,0.0,0.0,0.0,0.0,0,0.0,0.0,0.0,0.0,0.0,0.0,0,0,0,0,0,0,0,0,0,0,0,1,1,1,0,125,0,0,0,0
81019148,49.5625,49.5625,23.34375,23.34375,23.34375,46.6639,0.89,0.0,nan,25.6,49.5625,0.0,0.0,0.0,0.0,0.0,0.0,0.0,0.0,0.0,0.0,0.0,0.0,0.0,0.0,0,0.0,0.0,0.0,0.0,0.0,0.0,0,0,0,0,0,0,0,0,0,0,0,1,1,1,0,125,0,0,0,0
81816072,49.5625,49.5625,22.625,22.625,22.625,47.601,0.89,0.0,nan,25.6,49.5625,0.0,0.0,0.0,0.0,0.0,0.0,0.0,0.0,0.0,0.0,0.0,0.0,0.0,0.0,0,0.0,0.0,0.0,0.0,0.0,0.0,0,0,0,0,0,0,0,0,0,0,0,1,1,1,0,125,0,0,0,0
82613709,49.5625,49.5625,22.875,22.875,22.875,48.46185,0.89,0.0,nan,25.6,49.5625,0.0,0.0,0.0,0.0,0.0,0.0,0.0,0.0,0.0,0.0,0.0,0.0,0.0,0.0,0,0.0,0.0,0.0,0.0,0.0,0.0,0,0,0,0,0,0,0,0,0,0,0,1,1,1,0,125,0,0,0,0
83412337,49.625,49.625,17.7344,17.7344,17.7344,49.6779,0.9,0.0,nan,25.6,49.625,0.0,0.0,0.0,0.0,0.0,0.0,0.0,0.0,0.0,0.0,0.0,0.0,0.0,0.0,0,0.0,0.0,0.0,0.0,0.0,0.0,0,0,0,0,0,0,0,0,0,0,0,1,1,1,0,125,0,0,0,0
84210468,49.59375,49.59375,19.46875,19.46875,19.46875,50.5597,0.9,0.0,nan,25.6,49.59375,0.0,0.0,0.0,0.0,0.0,0.0,0.0,0.0,0.0,0.0,0.0,0.0,0.0,0.0,0,0.0,0.0,0.0,0.0,0.0,0.0,0,0,0,0,0,0,0,0,0,0,0,1,1,1,0,125,0,0,0,0
85007342,49.59375,49.59375,19.0156,19.0156,19.0156,51.1343,0.9,0.0,nan,25.6,49.59375,0.0,0.0,0.0,0.0,0.0,0.0,0.0,0.0,0.0,0.0,0.0,0.0,0.0,0.0,0,0.0,0.0,0.0,0.0,0.0,0.0,0,0,0,0,0,0,0,0,0,0,0,1,1,1,0,125,0,0,0,0
85804272,49.625,49.625,17.9844,17.9844,17.9844,51.7395,0.9,0.0,nan,25.6,49.625,0.0,0.0,0.0,0.0,0.0,0.0,0.0,0.0,0.0,0.0,0.0,0.0,0.0,0.0,0,0.0,0.0,0.0,0.0,0.0,0.0,0,0,0,0,0,0,0,0,0,0,0,1,1,1,0,125,0,0,0,0
86601907,49.75,49.75,12.1328,12.1328,12.1328,52.33977,0.92,0.0,nan,25.6,49.75,0.0,0.0,0.0,0.0,0.0,0.0,0.0,0.0,0.0,0.0,0.0,0.0,0.0,0.0,0,0.0,0.0,0.0,0.0,0.0,0.0,0,0,0,0,0,0,0,0,0,0,0,1,1,1,0,125,0,0,0,0
87400670,49.6875,49.6875,14.1328,14.1328,14.1328,52.8738,0.91,0.0,nan,25.6,49.6875,0.0,0.0,0.0,0.0,0.0,0.0,0.0,0.0,0.0,0.0,0.0,0.0,0.0,0.0,0,0.0,0.0,0.0,0.0,0.0,0.0,0,0,0,0,0,0,0,0,0,0,0,1,1,1,0,125,0,0,0,0
88197185,49.6875,49.6875,14.3047,14.3047,14.3047,53.37793,0.91,0.0,nan,25.6,49.6875,0.0,0.0,0.0,0.0,0.0,0.0,0.0,0.0,0.0,0.0,0.0,0.0,0.0,0.0,0,0.0,0.0,0.0,0.0,0.0,0.0,0,0,0,0,0,0,0,0,0,0,0,1,1,1,0,125,0,0,0,0
89194240,49.75,49.75,11.5,11.5,11.5,54.1384,0.92,0.0,nan,25.6,49.75,0.0,0.0,0.0,0.0,0.0,0.0,0.0,0.0,0.0,0.0,0.0,0.0,0.0,0.0,0,0.0,0.0,0.0,0.0,0.0,0.0,0,0,0,0,0,0,0,0,0,0,0,1,1,1,0,125,0,0,0,0
89992729,49.6875,49.6875,14.7422,14.7422,14.7422,54.97504,0.91,0.0,nan,25.6,49.6875,0.0,0.0,0.0,0.0,0.0,0.0,0.0,0.0,0.0,0.0,0.0,0.0,0.0,0.0,0,0.0,0.0,0.0,0.0,0.0,0.0,0,0,0,0,0,0,0,0,0,0,0,1,1,1,0,125,0,0,0,0
90789726,49.75,49.75,10.6797,10.6797,10.6797,55.681,0.92,0.0,nan,25.6,49.75,0.0,0.0,0.0,0.0,0.0,0.0,0.0,0.0,0.0,0.0,0.0,0.0,0.0,0.0,0,0.0,0.0,0.0,0.0,0.0,0.0,0,0,0,0,0,0,0,0,0,0,0,1,1,1,0,125,0,0,0,0
91587146,49.78125,49.78125,10.0469,10.0469,10.0469,56.1948,0.92,0.0,nan,25.6,49.78125,0.0,0.0,0.0,0.0,0.0,0.0,0.0,0.0,0.0,0.0,0.0,0.0,0.0,0.0,0,0.0,0.0,0.0,0.0,0.0,0.0,0,0,0,0,0,0,0,0,0,0,0,1,1,1,0,125,0,0,0,0
92384788,49.84375,49.84375,5.546875,5.546875,5.546875,56.6112,0.93,0.0,nan,25.6,49.84375,0.0,0.0,0.0,0.0,0.0,0.0,0.0,0.0,0.0,0.0,0.0,0.0,0.0,0.0,0,0.0,0.0,0.0,0.0,0.0,0.0,0,0,0,0,0,0,0,0,0,0,0,1,1,1,0,125,0,0,0,0
93183420,49.65625,49.65625,18.15625,18.15625,18.15625,57.1293,0.9,0.0,nan,25.6,49.65625,0.0,0.0,0.0,0.0,0.0,0.0,0.0,0.0,0.0,0.0,0.0,0.0,0.0,0.0,0,0.0,0.0,0.0,0.0,0.0,0.0,0,0,0,0,0,0,0,0,0,0,0,1,1,1,0,125,0,0,0,0
93980798,49.84375,49.84375,5.72656,5.72656,5.72656,57.455,0.93,0.0,nan,25.6,49.84375,0.0,0.0,0.0,0.0,0.0,0.0,0.0,0.0,0.0,0.0,0.0,0.0,0.0,0.0,0,0.0,0.0,0.0,0.0,0.0,0.0,0,0,0,0,0,0,0,0,0,0,0,1,1,1,0,125,0,0,0,0
94777705,49.8125,49.8125,8.14844,8.14844,8.14844,57.7926,0.93,0.0,nan,25.6,49.8125,0.0,0.0,0.0,0.0,0.0,0.0,0.0,0.0,0.0,0.0,0.0,0.0,0.0,0.0,0,0.0,0.0,0.0,0.0,0.0,0.0,0,0,0,0,0,0,0,0,0,0,0,1,1,1,0,125,0,0,0,0
95575356,49.78125,49.78125,9.671875,9.671875,9.671875,58.172,0.92,0.0,nan,25.6,49.78125,0.0,0.0,0.0,0.0,0.0,0.0,0.0,0.0,0.0,0.0,0.0,0.0,0.0,0.0,0,0.0,0.0,0.0,0.0,0.0,0.0,0,0,0,0,0,0,0,0,0,0,0,1,1,1,0,125,0,0,0,0
96372992,49.78125,49.78125,10.46875,10.46875,10.46875,58.86749,0.92,0.0,nan,25.6,49.78125,0.0,0.0,0.0,0.0,0.0,0.0,0.0,0.0,0.0,0.0,0.0,0.0,0.0,0.0,0,0.0,0.0,0.0,0.0,0.0,0.0,0,0,0,0,0,0,0,0,0,0,0,1,1,1,0,125,0,0,0,0
97170672,49.90625,49.90625,3.81445,3.81445,3.81445,59.55176,0.93,0.0,nan,25.6,49.90625,0.0,0.0,0.0,0.0,0.0,0.0,0.0,0.0,0.0,0.0,0.0,0.0,0.0,0.0,0,0.0,0.0,0.0,0.0,0.0,0.0,0,0,0,0,0,0,0,0,0,0,0,1,1,1,0,125,0,0,0,0
97968997,49.84375,49.84375,6.36328,6.36328,6.36328,59.8294,0.93,0.0,nan,25.6,49.84375,0.0,0.0,0.0,0.0,0.0,0.0,0.0,0.0,0.0,0.0,0.0,0.0,0.0,0.0,0,0.0,0.0,0.0,0.0,0.0,0.0,0,0,0,0,0,0,0,0,0,0,0,1,1,1,0,125,0,0,0,0
98766924,49.875,49.875,5.15234,5.15234,5.15234,60.2,0.93,0.0,nan,25.6,49.875,0.0,0.0,0.0,0.0,0.0,0.0,0.0,0.0,0.0,0.0,0.0,0.0,0.0,0.0,0,0.0,0.0,0.0,0.0,0.0,0.0,0,0,0,0,0,0,0,0,0,0,0,1,1,1,0,125,0,0,0,0
99563543,49.78125,49.78125,11.5859,11.5859,11.5859,60.5739,0.92,0.0,nan,25.6,49.78125,0.0,0.0,0.0,0.0,0.0,0.0,0.0,0.0,0.0,0.0,0.0,0.0,0.0,0.0,0,0.0,0.0,0.0,0.0,0.0,0.0,0,0,0,0,0,0,0,0,0,0,0,1,1,1,0,125,0,0,0,0
100361311,49.875,49.875,5.72656,5.72656,5.72656,60.9234,0.93,0.0,nan,25.6,49.875,0.0,0.0,0.0,0.0,0.0,0.0,0.0,0.0,0.0,0.0,0.0,0.0,0.0,0.0,0,0.0,0.0,0.0,0.0,0.0,0.0,0,0,0,0,0,0,0,0,0,0,0,1,1,1,0,125,0,0,0,0
101158976,49.84375,49.84375,7.85547,7.85547,7.85547,61.3205,0.93,0.0,nan,25.6,49.84375,0.0,0.0,0.0,0.0,0.0,0.0,0.0,0.0,0.0,0.0,0.0,0.0,0.0,0.0,0,0.0,0.0,0.0,0.0,0.0,0.0,0,0,0,0,0,0,0,0,0,0,0,1,1,1,0,125,0,0,0,0
101957227,49.875,49.875,5.703125,5.703125,5.703125,61.6624,0.93,0.0,nan,25.6,49.875,0.0,0.0,0.0,0.0,0.0,0.0,0.0,0.0,0.0,0.0,0.0,0.0,0.0,0.0,0,0.0,0.0,0.0,0.0,0.0,0.0,0,0,0,0,0,0,0,0,0,0,0,1,1,1,0,125,0,0,0,0
102754942,49.875,49.875,6.15234,6.15234,6.15234,62.01415,0.93,0.0,nan,25.6,49.875,0.0,0.0,0.0,0.0,0.0,0.0,0.0,0.0,0.0,0.0,0.0,0.0,0.0,0.0,0,0.0,0.0,0.0,0.0,0.0,0.0,0,0,0,0,0,0,0,0,0,0,0,1,1,1,0,125,0,0,0,0
103551742,49.8125,49.8125,9.71094,9.71094,9.71094,62.7098,0.92,0.0,nan,25.6,49.8125,0.0,0.0,0.0,0.0,0.0,0.0,0.0,0.0,0.0,0.0,0.0,0.0,0.0,0.0,0,0.0,0.0,0.0,0.0,0.0,0.0,0,0,0,0,0,0,0,0,0,0,0,1,1,1,0,125,0,0,0,0
104349391,49.84375,49.84375,7.67578,7.67578,7.67578,63.1611,0.93,0.0,nan,25.6,49.84375,0.0,0.0,0.0,0.0,0.0,0.0,0.0,0.0,0.0,0.0,0.0,0.0,0.0,0.0,0,0.0,0.0,0.0,0.0,0.0,0.0,0,0,0,0,0,0,0,0,0,0,0,1,1,1,0,125,0,0,0,0
105147293,49.84375,49.84375,6.859375,6.859375,6.859375,63.9495,0.93,0.0,nan,25.6,49.84375,0.0,0.0,0.0,0.0,0.0,0.0,0.0,0.0,0.0,0.0,0.0,0.0,0.0,0.0,0,0.0,0.0,0.0,0.0,0.0,0.0,0,0,0,0,0,0,0,0,0,0,0,1,1,1,0,125,0,0,0,0
105945406,49.90625,49.90625,3.24219,3.24219,3.24219,64.2778,0.94,0.0,nan,25.6,49.90625,0.0,0.0,0.0,0.0,0.0,0.0,0.0,0.0,0.0,0.0,0.0,0.0,0.0,0.0,0,0.0,0.0,0.0,0.0,0.0,0.0,0,0,0,0,0,0,0,0,0,0,0,1,1,1,0,125,0,0,0,0
106742303,49.8125,49.8125,8.703125,8.703125,8.703125,64.64597,0.93,0.0,nan,25.6,49.8125,0.0,0.0,0.0,0.0,0.0,0.0,0.0,0.0,0.0,0.0,0.0,0.0,0.0,0.0,0,0.0,0.0,0.0,0.0,0.0,0.0,0,0,0,0,0,0,0,0,0,0,0,1,1,1,0,125,0,0,0,0
107540391,49.875,49.875,6.72656,6.72656,6.72656,65.0705,0.93,0.0,nan,25.6,49.875,0.0,0.0,0.0,0.0,0.0,0.0,0.0,0.0,0.0,0.0,0.0,0.0,0.0,0.0,0,0.0,0.0,0.0,0.0,0.0,0.0,0,0,0,0,0,0,0,0,0,0,0,1,1,1,0,125,0,0,0,0
108337588,49.78125,49.78125,11.0781,11.0781,11.0781,65.53553,0.92,0.0,nan,25.35,49.78125,0.0,0.0,0.0,0.0,0.0,0.0,0.0,0.0,0.0,0.0,0.0,0.0,0.0,0.0,0,0.0,0.0,0.0,0.0,0.0,0.0,0,0,0,0,0,0,0,0,0,0,0,1,1,1,0,125,0,0,0,0
109135219,49.875,49.875,6.4375,6.4375,6.4375,65.9373,0.93,0.0,nan,25.35,49.875,0.0,0.0,0.0,0.0,0.0,0.0,0.0,0.0,0.0,0.0,0.0,0.0,0.0,0.0,0,0.0,0.0,0.0,0.0,0.0,0.0,0,0,0,0,0,0,0,0,0,0,0,1,1,1,0,125,0,0,0,0
109933615,49.84375,49.84375,7.58984,7.58984,7.58984,66.37163,0.93,0.0,nan,25.35,49.84375,0.0,0.0,0.0,0.0,0.0,0.0,0.0,0.0,0.0,0.0,0.0,0.0,0.0,0.0,0,0.0,0.0,0.0,0.0,0.0,0.0,0,0,0,0,0,0,0,0,0,0,0,1,1,1,0,125,0,0,0,0
110731524,49.90625,49.90625,4.703125,4.703125,4.703125,66.74762,0.94,0.0,nan,25.35,49.90625,0.0,0.0,0.0,0.0,0.0,0.0,0.0,0.0,0.0,0.0,0.0,0.0,0.0,0.0,0,0.0,0.0,0.0,0.0,0.0,0.0,0,0,0,0,0,0,0,0,0,0,0,1,1,1,0,125,0,0,0,0
111528160,49.875,49.875,6.43359,6.43359,6.43359,67.1224,0.93,0.0,nan,25.35,49.875,0.0,0.0,0.0,0.0,0.0,0.0,0.0,0.0,0.0,0.0,0.0,0.0,0.0,0.0,0,0.0,0.0,0.0,0.0,0.0,0.0,0,0,0,0,0,0,0,0,0,0,0,1,1,1,0,125,0,0,0,0
112326231,49.84375,49.84375,7.30469,7.30469,7.30469,67.6295,0.93,0.0,nan,25.35,49.84375,0.0,0.0,0.0,0.0,0.0,0.0,0.0,0.0,0.0,0.0,0.0,0.0,0.0,0.0,0,0.0,0.0,0.0,0.0,0.0,0.0,0,0,0,0,0,0,0,0,0,0,0,1,1,1,0,125,0,0,0,0
113123418,49.875,49.875,5.12891,5.12891,5.12891,68.0569,0.93,0.0,nan,25.35,49.875,0.0,0.0,0.0,0.0,0.0,0.0,0.0,0.0,0.0,0.0,0.0,0.0,0.0,0.0,0,0.0,0.0,0.0,0.0,0.0,0.0,0,0,0,0,0,0,0,0,0,0,0,1,1,1,0,125,0,0,0,0
113921809,49.84375,49.84375,8.1875,8.1875,8.1875,68.5847,0.93,0.0,nan,25.35,49.84375,0.0,0.0,0.0,0.0,0.0,0.0,0.0,0.0,0.0,0.0,0.0,0.0,0.0,0.0,0,0.0,0.0,0.0,0.0,0.0,0.0,0,0,0,0,0,0,0,0,0,0,0,1,1,1,0,125,0,0,0,0
114718896,49.875,49.875,5.42578,5.42578,5.42578,69.11102,0.93,0.0,nan,25.35,49.875,0.0,0.0,0.0,0.0,0.0,0.0,0.0,0.0,0.0,0.0,0.0,0.0,0.0,0.0,0,0.0,0.0,0.0,0.0,0.0,0.0,0,0,0,0,0,0,0,0,0,0,0,1,1,1,0,125,0,0,0,0
115517347,49.875,49.875,5.63281,5.63281,5.63281,69.43247,0.93,0.0,nan,25.35,49.875,0.0,0.0,0.0,0.0,0.0,0.0,0.0,0.0,0.0,0.0,0.0,0.0,0.0,0.0,0,0.0,0.0,0.0,0.0,0.0,0.0,0,0,0,0,0,0,0,0,0,0,0,1,1,1,0,125,0,0,0,0
116313973,49.84375,49.84375,7.203125,7.203125,7.203125,69.85567,0.93,0.0,nan,25.35,49.84375,0.0,0.0,0.0,0.0,0.0,0.0,0.0,0.0,0.0,0.0,0.0,0.0,0.0,0.0,0,0.0,0.0,0.0,0.0,0.0,0.0,0,0,0,0,0,0,0,0,0,0,0,1,1,1,0,125,0,0,0,0
117112000,49.90625,49.90625,3.83789,3.83789,3.83789,70.22619,0.94,0.0,nan,25.35,49.90625,0.0,0.0,0.0,0.0,0.0,0.0,0.0,0.0,0.0,0.0,0.0,0.0,0.0,0.0,0,0.0,0.0,0.0,0.0,0.0,0.0,0,0,0,0,0,0,0,0,0,0,0,1,1,1,0,125,0,0,0,0
117909979,49.90625,49.90625,4.57422,4.57422,4.57422,70.54279,0.94,0.0,nan,25.35,49.90625,0.0,0.0,0.0,0.0,0.0,0.0,0.0,0.0,0.0,0.0,0.0,0.0,0.0,0.0,0,0.0,0.0,0.0,0.0,0.0,0.0,0,0,0,0,0,0,0,0,0,0,0,1,1,1,0,125,0,0,0,0
118706884,49.90625,49.90625,4.72266,4.72266,4.72266,70.94123,0.94,0.0,nan,25.35,49.90625,0.0,0.0,0.0,0.0,0.0,0.0,0.0,0.0,0.0,0.0,0.0,0.0,0.0,0.0,0,0.0,0.0,0.0,0.0,0.0,0.0,0,0,0,0,0,0,0,0,0,0,0,1,1,1,0,125,0,0,0,0
119505521,49.9375,49.9375,2.55664,2.55664,2.55664,71.1549,0.94,0.0,nan,25.35,49.9375,0.0,0.0,0.0,0.0,0.0,0.0,0.0,0.0,0.0,0.0,0.0,0.0,0.0,0.0,0,0.0,0.0,0.0,0.0,0.0,0.0,0,0,0,0,0,0,0,0,0,0,0,1,1,1,0,125,0,0,0,0
120501579,49.9375,49.9375,3.61719,3.61719,3.61719,71.40766,0.94,0.0,nan,25.35,49.9375,0.0,0.0,0.0,0.0,0.0,0.0,0.0,0.0,0.0,0.0,0.0,0.0,0.0,0.0,0,0.0,0.0,0.0,0.0,0.0,0.0,0,0,0,0,0,0,0,0,0,0,0,1,1,1,0,125,0,0,0,0
121300219,49.90625,49.90625,4.21875,4.21875,4.21875,71.70748,0.94,0.0,nan,25.35,49.90625,0.0,0.0,0.0,0.0,0.0,0.0,0.0,0.0,0.0,0.0,0.0,0.0,0.0,0.0,0,0.0,0.0,0.0,0.0,0.0,0.0,0,0,0,0,0,0,0,0,0,0,0,1,1,1,0,125,0,0,0,0
122096850,49.9375,49.9375,3.68945,3.68945,3.68945,71.9749,0.94,0.0,nan,25.35,49.9375,0.0,0.0,0.0,0.0,0.0,0.0,0.0,0.0,0.0,0.0,0.0,0.0,0.0,0.0,0,0.0,0.0,0.0,0.0,0.0,0.0,0,0,0,0,0,0,0,0,0,0,0,1,1,1,0,125,0,0,0,0
122896948,49.9375,49.9375,3.24023,3.24023,3.24023,72.21624,0.94,0.0,nan,25.35,49.9375,0.0,0.0,0.0,0.0,0.0,0.0,0.0,0.0,0.0,0.0,0.0,0.0,0.0,0.0,0,0.0,0.0,0.0,0.0,0.0,0.0,0,0,0,0,0,0,0,0,0,0,0,1,1,1,0,125,0,0,0,0
123692129,49.96875,49.96875,1.54199,1.54199,1.54199,72.37105,0.94,0.0,nan,25.35,49.96875,0.0,0.0,0.0,0.0,0.0,0.0,0.0,0.0,0.0,0.0,0.0,0.0,0.0,0.0,0,0.0,0.0,0.0,0.0,0.0,0.0,0,0,0,0,0,0,0,0,0,0,0,1,1,1,0,125,0,0,0,0
124490776,50.0,50.0,0.1361084,0.1361084,0.1361084,72.44195,0.95,0.0,nan,25.35,50.0,0.0,0.0,0.0,0.0,0.0,0.0,0.0,0.0,0.0,0.0,0.0,0.0,0.0,0.0,0,0.0,0.0,0.0,0.0,0.0,0.0,0,0,0,0,0,0,0,0,0,0,0,1,1,1,0,125,0,0,0,0
125287404,50.0,50.0,0.1361084,0.1361084,0.1361084,72.478,0.95,0.0,nan,25.35,50.0,0.0,0.0,0.0,0.0,0.0,0.0,0.0,0.0,0.0,0.0,0.0,0.0,0.0,0.0,0,0.0,0.0,0.0,0.0,0.0,0.0,0,0,0,0,0,0,0,0,0,0,0,1,1,1,0,125,0,0,0,0
126086053,50.0,50.0,0.126099,0.126099,0.126099,72.52917,0.95,0.0,nan,25.35,50.0,0.0,0.0,0.0,0.0,0.0,0.0,0.0,0.0,0.0,0.0,0.0,0.0,0.0,0.0,0,0.0,0.0,0.0,0.0,0.0,0.0,0,0,0,0,0,0,0,0,0,0,0,1,1,1,0,125,0,0,0,0
126883741,50.0,50.0,0.12146,0.12146,0.12146,72.54914,0.95,0.0,nan,25.35,50.0,0.0,0.0,0.0,0.0,0.0,0.0,0.0,0.0,0.0,0.0,0.0,0.0,0.0,0.0,0,0.0,0.0,0.0,0.0,0.0,0.0,0,0,0,0,0,0,0,0,0,0,0,1,1,1,0,125,0,0,0,0
127680327,50.0,50.0,0.1194458,0.1194458,0.1194458,72.569,0.95,0.0,nan,25.35,50.0,0.0,0.0,0.0,0.0,0.0,0.0,0.0,0.0,0.0,0.0,0.0,0.0,0.0,0.0,0,0.0,0.0,0.0,0.0,0.0,0.0,0,0,0,0,0,0,0,0,0,0,0,1,1,1,0,125,0,0,0,0
128477953,50.0,50.0,0.117981,0.117981,0.117981,72.58865,0.95,0.0,nan,25.35,50.0,0.0,0.0,0.0,0.0,0.0,0.0,0.0,0.0,0.0,0.0,0.0,0.0,0.0,0.0,0,0.0,0.0,0.0,0.0,0.0,0.0,0,0,0,0,0,0,0,0,0,0,0,1,1,1,0,125,0,0,0,0
129275599,50.03125,50.03125,0.117371,0.117371,0.117371,72.60831,0.95,0.0,nan,25.35,50.03125,0.0,0.0,0.0,0.0,0.0,0.0,0.0,0.0,0.0,0.0,0.0,0.0,0.0,0.0,0,0.0,0.0,0.0,0.0,0.0,0.0,0,0,0,0,0,0,0,0,0,0,0,1,1,1,0,125,0,0,0,0
130073247,50.03125,50.03125,0.117004,0.117004,0.117004,72.628,0.95,0.0,nan,25.35,50.03125,0.0,0.0,0.0,0.0,0.0,0.0,0.0,0.0,0.0,0.0,0.0,0.0,0.0,0.0,0,0.0,0.0,0.0,0.0,0.0,0.0,0,0,0,0,0,0,0,0,0,0,0,1,1,1,0,125,0,0,0,0
130871635,50.03125,50.03125,0.1161499,0.1161499,0.1161499,72.64765,0.95,0.0,nan,25.35,50.03125,0.0,0.0,0.0,0.0,0.0,0.0,0.0,0.0,0.0,0.0,0.0,0.0,0.0,0.0,0,0.0,0.0,0.0,0.0,0.0,0.0,0,0,0,0,0,0,0,0,0,0,0,1,1,1,0,125,0,0,0,0
131668523,50.03125,50.03125,0.116333,0.116333,0.116333,72.66731,0.95,0.0,nan,25.35,50.03125,0.0,0.0,0.0,0.0,0.0,0.0,0.0,0.0,0.0,0.0,0.0,0.0,0.0,0.0,0,0.0,0.0,0.0,0.0,0.0,0.0,0,0,0,0,0,0,0,0,0,0,0,1,1,1,0,125,0,0,0,0
132466176,50.03125,50.03125,0.1161499,0.1161499,0.1161499,72.687,0.95,0.0,nan,25.35,50.03125,0.0,0.0,0.0,0.0,0.0,0.0,0.0,0.0,0.0,0.0,0.0,0.0,0.0,0.0,0,0.0,0.0,0.0,0.0,0.0,0.0,0,0,0,0,0,0,0,0,0,0,0,1,1,1,0,125,0,0,0,0
133263816,50.03125,50.03125,0.116089,0.116089,0.116089,72.7066,0.95,0.0,nan,25.35,50.03125,0.0,0.0,0.0,0.0,0.0,0.0,0.0,0.0,0.0,0.0,0.0,0.0,0.0,0.0,0,0.0,0.0,0.0,0.0,0.0,0.0,0,0,0,0,0,0,0,0,0,0,0,1,1,1,0,125,0,0,0,0
134061462,50.03125,50.03125,0.115906,0.115906,0.115906,72.72637,0.95,0.0,nan,25.35,50.03125,0.0,0.0,0.0,0.0,0.0,0.0,0.0,0.0,0.0,0.0,0.0,0.0,0.0,0.0,0,0.0,0.0,0.0,0.0,0.0,0.0,0,0,0,0,0,0,0,0,0,0,0,1,1,1,0,125,0,0,0,0
134859793,50.03125,50.03125,0.116333,0.116333,0.116333,72.74613,0.95,0.0,nan,25.35,50.03125,0.0,0.0,0.0,0.0,0.0,0.0,0.0,0.0,0.0,0.0,0.0,0.0,0.0,0.0,0,0.0,0.0,0.0,0.0,0.0,0.0,0,0,0,0,0,0,0,0,0,0,0,1,1,1,0,125,0,0,0,0
135657706,50.03125,50.03125,0.1161499,0.1161499,0.1161499,72.76589,0.95,0.0,nan,25.35,50.03125,0.0,0.0,0.0,0.0,0.0,0.0,0.0,0.0,0.0,0.0,0.0,0.0,0.0,0.0,0,0.0,0.0,0.0,0.0,0.0,0.0,0,0,0,0,0,0,0,0,0,0,0,1,1,1,0,125,0,0,0,0
136454378,50.03125,50.03125,0.116089,0.116089,0.116089,72.7856,0.95,0.0,nan,25.1,50.03125,0.0,0.0,0.0,0.0,0.0,0.0,0.0,0.0,0.0,0.0,0.0,0.0,0.0,0.0,0,0.0,0.0,0.0,0.0,0.0,0.0,0,0,0,0,0,0,0,0,0,0,0,1,1,1,0,125,0,0,0,0
137251984,50.03125,50.03125,0.116333,0.116333,0.116333,72.80539,0.95,0.0,nan,25.1,50.03125,0.0,0.0,0.0,0.0,0.0,0.0,0.0,0.0,0.0,0.0,0.0,0.0,0.0,0.0,0,0.0,0.0,0.0,0.0,0.0,0.0,0,0,0,0,0,0,0,0,0,0,0,1,1,1,0,125,0,0,0,0
138049631,50.03125,50.03125,0.116211,0.116211,0.116211,72.82521,0.95,0.0,nan,25.1,50.03125,0.0,0.0,0.0,0.0,0.0,0.0,0.0,0.0,0.0,0.0,0.0,0.0,0.0,0.0,0,0.0,0.0,0.0,0.0,0.0,0.0,0,0,0,0,0,0,0,0,0,0,0,1,1,1,0,125,0,0,0,0
138847988,50.03125,50.03125,0.1161499,0.1161499,0.1161499,72.84501,0.95,0.0,nan,25.1,50.03125,0.0,0.0,0.0,0.0,0.0,0.0,0.0,0.0,0.0,0.0,0.0,0.0,0.0,0.0,0,0.0,0.0,0.0,0.0,0.0,0.0,0,0,0,0,0,0,0,0,0,0,0,1,1,1,0,125,0,0,0,0
139645922,50.03125,50.03125,0.115662,0.115662,0.115662,72.8648,0.95,0.0,nan,25.1,50.03125,0.0,0.0,0.0,0.0,0.0,0.0,0.0,0.0,0.0,0.0,0.0,0.0,0.0,0.0,0,0.0,0.0,0.0,0.0,0.0,0.0,0,0,0,0,0,0,0,0,0,0,0,1,1,1,0,125,0,0,0,0
140443668,50.03125,50.03125,0.115845,0.115845,0.115845,72.88455,0.95,0.0,nan,25.1,50.03125,0.0,0.0,0.0,0.0,0.0,0.0,0.0,0.0,0.0,0.0,0.0,0.0,0.0,0.0,0,0.0,0.0,0.0,0.0,0.0,0.0,0,0,0,0,0,0,0,0,0,0,0,1,1,1,0,125,0,0,0,0
141241442,50.03125,50.03125,0.115723,0.115723,0.115723,72.90439,0.95,0.0,nan,25.1,50.03125,0.0,0.0,0.0,0.0,0.0,0.0,0.0,0.0,0.0,0.0,0.0,0.0,0.0,0.0,0,0.0,0.0,0.0,0.0,0.0,0.0,0,0,0,0,0,0,0,0,0,0,0,1,1,1,0,125,0,0,0,0
142037913,50.03125,50.03125,0.115845,0.115845,0.115845,72.9242,0.95,0.0,nan,25.1,50.03125,0.0,0.0,0.0,0.0,0.0,0.0,0.0,0.0,0.0,0.0,0.0,0.0,0.0,0.0,0,0.0,0.0,0.0,0.0,0.0,0.0,0,0,0,0,0,0,0,0,0,0,0,1,1,1,0,125,0,0,0,0
142836181,50.03125,50.03125,0.116028,0.116028,0.116028,72.944,0.95,0.0,nan,25.1,50.03125,0.0,0.0,0.0,0.0,0.0,0.0,0.0,0.0,0.0,0.0,0.0,0.0,0.0,0.0,0,0.0,0.0,0.0,0.0,0.0,0.0,0,0,0,0,0,0,0,0,0,0,0,1,1,1,0,125,0,0,0,0
143634089,50.03125,50.03125,0.116089,0.116089,0.116089,72.96393,0.95,0.0,nan,25.1,50.03125,0.0,0.0,0.0,0.0,0.0,0.0,0.0,0.0,0.0,0.0,0.0,0.0,0.0,0.0,0,0.0,0.0,0.0,0.0,0.0,0.0,0,0,0,0,0,0,0,0,0,0,0,1,1,1,0,125,0,0,0,0
144431727,50.03125,50.03125,0.116455,0.116455,0.116455,72.98379,0.95,0.0,nan,25.1,50.03125,0.0,0.0,0.0,0.0,0.0,0.0,0.0,0.0,0.0,0.0,0.0,0.0,0.0,0.0,0,0.0,0.0,0.0,0.0,0.0,0.0,0,0,0,0,0,0,0,0,0,0,0,1,1,1,0,125,0,0,0,0
145229395,50.03125,50.03125,0.116272,0.116272,0.116272,73.00378,0.95,0.0,nan,25.1,50.03125,0.0,0.0,0.0,0.0,0.0,0.0,0.0,0.0,0.0,0.0,0.0,0.0,0.0,0.0,0,0.0,0.0,0.0,0.0,0.0,0.0,0,0,0,0,0,0,0,0,0,0,0,1,1,1,0,125,0,0,0,0
146026020,50.0625,50.0625,0.115906,0.115906,0.115906,73.02367,0.95,0.0,nan,25.1,50.0625,0.0,0.0,0.0,0.0,0.0,0.0,0.0,0.0,0.0,0.0,0.0,0.0,0.0,0.0,0,0.0,0.0,0.0,0.0,0.0,0.0,0,0,0,0,0,0,0,0,0,0,0,1,1,1,0,125,0,0,0,0
146824716,50.0625,50.0625,0.116089,0.116089,0.116089,73.04371,0.95,0.0,nan,25.1,50.0625,0.0,0.0,0.0,0.0,0.0,0.0,0.0,0.0,0.0,0.0,0.0,0.0,0.0,0.0,0,0.0,0.0,0.0,0.0,0.0,0.0,0,0,0,0,0,0,0,0,0,0,0,1,1,1,0,125,0,0,0,0
147621298,50.0625,50.0625,0.115845,0.115845,0.115845,73.06367,0.95,0.0,nan,25.1,50.0625,0.0,0.0,0.0,0.0,0.0,0.0,0.0,0.0,0.0,0.0,0.0,0.0,0.0,0.0,0,0.0,0.0,0.0,0.0,0.0,0.0,0,0,0,0,0,0,0,0,0,0,0,1,1,1,0,125,0,0,0,0
148418932,50.0625,50.0625,0.116211,0.116211,0.116211,73.0837,0.95,0.0,nan,25.1,50.0625,0.0,0.0,0.0,0.0,0.0,0.0,0.0,0.0,0.0,0.0,0.0,0.0,0.0,0.0,0,0.0,0.0,0.0,0.0,0.0,0.0,0,0,0,0,0,0,0,0,0,0,0,1,1,1,0,125,0,0,0,0
149216557,50.0625,50.0625,0.116028,0.116028,0.116028,73.10363,0.95,0.0,nan,25.1,50.0625,0.0,0.0,0.0,0.0,0.0,0.0,0.0,0.0,0.0,0.0,0.0,0.0,0.0,0.0,0,0.0,0.0,0.0,0.0,0.0,0.0,0,0,0,0,0,0,0,0,0,0,0,1,1,1,0,125,0,0,0,0
150015198,50.0625,50.0625,0.116211,0.116211,0.116211,73.12362,0.95,0.0,nan,25.1,50.0625,0.0,0.0,0.0,0.0,0.0,0.0,0.0,0.0,0.0,0.0,0.0,0.0,0.0,0.0,0,0.0,0.0,0.0,0.0,0.0,0.0,0,0,0,0,0,0,0,0,0,0,0,1,1,1,0,125,0,0,0,0
150813132,50.0625,50.0625,0.116211,0.116211,0.116211,73.14362,0.95,0.0,nan,25.1,50.0625,0.0,0.0,0.0,0.0,0.0,0.0,0.0,0.0,0.0,0.0,0.0,0.0,0.0,0.0,0,0.0,0.0,0.0,0.0,0.0,0.0,0,0,0,0,0,0,0,0,0,0,0,1,1,1,0,125,0,0,0,0
151609479,50.0625,50.0625,0.116333,0.116333,0.116333,73.16366,0.95,0.0,nan,25.1,50.0625,0.0,0.0,0.0,0.0,0.0,0.0,0.0,0.0,0.0,0.0,0.0,0.0,0.0,0.0,0,0.0,0.0,0.0,0.0,0.0,0.0,0,0,0,0,0,0,0,0,0,0,0,1,1,1,0,125,0,0,0,0
152407121,50.0625,50.0625,0.116455,0.116455,0.116455,73.18376,0.95,0.0,nan,25.1,50.0625,0.0,0.0,0.0,0.0,0.0,0.0,0.0,0.0,0.0,0.0,0.0,0.0,0.0,0.0,0,0.0,0.0,0.0,0.0,0.0,0.0,0,0,0,0,0,0,0,0,0,0,0,1,1,1,0,125,0,0,0,0
153205186,50.0625,50.0625,0.116211,0.116211,0.116211,73.20392,0.95,0.0,nan,25.1,50.0625,0.0,0.0,0.0,0.0,0.0,0.0,0.0,0.0,0.0,0.0,0.0,0.0,0.0,0.0,0,0.0,0.0,0.0,0.0,0.0,0.0,0,0,0,0,0,0,0,0,0,0,0,1,1,1,0,125,0,0,0,0
154002670,50.0625,50.0625,0.116394,0.116394,0.116394,73.22405,0.95,0.0,nan,25.1,50.0625,0.0,0.0,0.0,0.0,0.0,0.0,0.0,0.0,0.0,0.0,0.0,0.0,0.0,0.0,0,0.0,0.0,0.0,0.0,0.0,0.0,0,0,0,0,0,0,0,0,0,0,0,1,1,1,0,125,0,0,0,0
154800952,50.0625,50.0625,0.115906,0.115906,0.115906,73.24421,0.95,0.0,nan,25.1,50.0625,0.0,0.0,0.0,0.0,0.0,0.0,0.0,0.0,0.0,0.0,0.0,0.0,0.0,0.0,0,0.0,0.0,0.0,0.0,0.0,0.0,0,0,0,0,0,0,0,0,0,0,0,1,1,1,0,125,0,0,0,0
155797833,50.0625,50.0625,0.115906,0.115906,0.115906,73.26864,0.95,0.0,nan,25.1,50.0625,0.0,0.0,0.0,0.0,0.0,0.0,0.0,0.0,0.0,0.0,0.0,0.0,0.0,0.0,0,0.0,0.0,0.0,0.0,0.0,0.0,0,0,0,0,0,0,0,0,0,0,0,1,1,1,0,125,0,0,0,0
156594713,50.0625,50.0625,0.1161499,0.1161499,0.1161499,73.2888,0.95,0.0,nan,25.1,50.0625,0.0,0.0,0.0,0.0,0.0,0.0,0.0,0.0,0.0,0.0,0.0,0.0,0.0,0.0,0,0.0,0.0,0.0,0.0,0.0,0.0,0,0,0,0,0,0,0,0,0,0,0,1,1,1,0,125,0,0,0,0
157392352,50.0625,50.0625,0.116211,0.116211,0.116211,73.309,0.95,0.0,nan,25.1,50.0625,0.0,0.0,0.0,0.0,0.0,0.0,0.0,0.0,0.0,0.0,0.0,0.0,0.0,0.0,0,0.0,0.0,0.0,0.0,0.0,0.0,0,0,0,0,0,0,0,0,0,0,0,1,1,1,0,125,0,0,0,0
158189996,50.0625,50.0625,0.115662,0.115662,0.115662,73.3291,0.95,0.0,nan,25.1,50.0625,0.0,0.0,0.0,0.0,0.0,0.0,0.0,0.0,0.0,0.0,0.0,0.0,0.0,0.0,0,0.0,0.0,0.0,0.0,0.0,0.0,0,0,0,0,0,0,0,0,0,0,0,1,1,1,0,125,0,0,0,0
158987636,50.0625,50.0625,0.1159668,0.1159668,0.1159668,73.34931,0.95,0.0,nan,25.1,50.0625,0.0,0.0,0.0,0.0,0.0,0.0,0.0,0.0,0.0,0.0,0.0,0.0,0.0,0.0,0,0.0,0.0,0.0,0.0,0.0,0.0,0,0,0,0,0,0,0,0,0,0,0,1,1,1,0,125,0,0,0,0
159785992,50.0625,50.0625,0.115845,0.115845,0.115845,73.3696,0.95,0.0,nan,25.1,50.0625,0.0,0.0,0.0,0.0,0.0,0.0,0.0,0.0,0.0,0.0,0.0,0.0,0.0,0.0,0,0.0,0.0,0.0,0.0,0.0,0.0,0,0,0,0,0,0,0,0,0,0,0,1,1,1,0,125,0,0,0,0
160582903,50.0625,50.0625,0.1159668,0.1159668,0.1159668,73.38977,0.95,0.0,nan,25.1,50.0625,0.0,0.0,0.0,0.0,0.0,0.0,0.0,0.0,0.0,0.0,0.0,0.0,0.0,0.0,0,0.0,0.0,0.0,0.0,0.0,0.0,0,0,0,0,0,0,0,0,0,0,0,1,1,1,0,125,0,0,0,0
161380748,50.0625,50.0625,0.115784,0.115784,0.115784,73.4114,0.95,0.0,nan,25.1,50.0625,0.0,0.0,0.0,0.0,0.0,0.0,0.0,0.0,0.0,0.0,0.0,0.0,0.0,0.0,0,0.0,0.0,0.0,0.0,0.0,0.0,0,0,0,0,0,0,0,0,0,0,0,1,1,1,0,125,0,0,0,0
162178201,50.0625,50.0625,0.115356,0.115356,0.115356,73.4317,0.95,0.0,nan,25.1,50.0625,0.0,0.0,0.0,0.0,0.0,0.0,0.0,0.0,0.0,0.0,0.0,0.0,0.0,0.0,0,0.0,0.0,0.0,0.0,0.0,0.0,0,0,0,0,0,0,0,0,0,0,0,1,1,1,0,125,0,0,0,0
162975823,50.0625,50.0625,0.116028,0.116028,0.116028,73.452,0.95,0.0,nan,25.1,50.0625,0.0,0.0,0.0,0.0,0.0,0.0,0.0,0.0,0.0,0.0,0.0,0.0,0.0,0.0,0,0.0,0.0,0.0,0.0,0.0,0.0,0,0,0,0,0,0,0,0,0,0,0,1,1,1,0,125,0,0,0,0
163774183,50.0625,50.0625,0.115173,0.115173,0.115173,73.47222,0.95,0.0,nan,25.1,50.0625,0.0,0.0,0.0,0.0,0.0,0.0,0.0,0.0,0.0,0.0,0.0,0.0,0.0,0.0,0,0.0,0.0,0.0,0.0,0.0,0.0,0,0,0,0,0,0,0,0,0,0,0,1,1,1,0,125,0,0,0,0
164571333,50.0625,50.0625,0.115601,0.115601,0.115601,73.49242,0.95,0.0,nan,25.1,50.0625,0.0,0.0,0.0,0.0,0.0,0.0,0.0,0.0,0.0,0.0,0.0,0.0,0.0,0.0,0,0.0,0.0,0.0,0.0,0.0,0.0,0,0,0,0,0,0,0,0,0,0,0,1,1,1,0,125,0,0,0,0
165368740,50.0625,50.0625,0.115601,0.115601,0.115601,73.51269,0.95,0.0,nan,25.1,50.0625,0.0,0.0,0.0,0.0,0.0,0.0,0.0,0.0,0.0,0.0,0.0,0.0,0.0,0.0,0,0.0,0.0,0.0,0.0,0.0,0.0,0,0,0,0,0,0,0,0,0,0,0,1,1,1,0,125,0,0,0,0
166166382,50.0625,50.0625,0.115784,0.115784,0.115784,73.53296,0.95,0.0,nan,25.1,50.0625,0.0,0.0,0.0,0.0,0.0,0.0,0.0,0.0,0.0,0.0,0.0,0.0,0.0,0.0,0,0.0,0.0,0.0,0.0,0.0,0.0,0,0,0,0,0,0,0,0,0,0,0,1,1,1,0,125,0,0,0,0
166964014,50.0625,50.0625,0.116455,0.116455,0.116455,73.5533,0.95,0.0,nan,25.1,50.0625,0.0,0.0,0.0,0.0,0.0,0.0,0.0,0.0,0.0,0.0,0.0,0.0,0.0,0.0,0,0.0,0.0,0.0,0.0,0.0,0.0,0,0,0,0,0,0,0,0,0,0,0,1,1,1,0,125,0,0,0,0
167762606,50.0625,50.0625,0.116394,0.116394,0.116394,73.57373,0.95,0.0,nan,25.1,50.0625,0.0,0.0,0.0,0.0,0.0,0.0,0.0,0.0,0.0,0.0,0.0,0.0,0.0,0.0,0,0.0,0.0,0.0,0.0,0.0,0.0,0,0,0,0,0,0,0,0,0,0,0,1,1,1,0,125,0,0,0,0
168560317,50.0625,50.0625,0.116272,0.116272,0.116272,73.59416,0.95,0.0,nan,25.1,50.0625,0.0,0.0,0.0,0.0,0.0,0.0,0.0,0.0,0.0,0.0,0.0,0.0,0.0,0.0,0,0.0,0.0,0.0,0.0,0.0,0.0,0,0,0,0,0,0,0,0,0,0,0,1,1,1,0,125,0,0,0,0
169356918,50.0625,50.0625,0.115906,0.115906,0.115906,73.6146,0.95,0.0,nan,25.1,50.0625,0.0,0.0,0.0,0.0,0.0,0.0,0.0,0.0,0.0,0.0,0.0,0.0,0.0,0.0,0,0.0,0.0,0.0,0.0,0.0,0.0,0,0,0,0,0,0,0,0,0,0,0,1,1,1,0,125,0,0,0,0
170154576,50.0625,50.0625,0.116333,0.116333,0.116333,73.6349,0.95,0.0,nan,25.1,50.0625,0.0,0.0,0.0,0.0,0.0,0.0,0.0,0.0,0.0,0.0,0.0,0.0,0.0,0.0,0,0.0,0.0,0.0,0.0,0.0,0.0,0,0,0,0,0,0,0,0,0,0,0,1,1,1,0,125,0,0,0,0
170952222,50.0625,50.0625,0.116211,0.116211,0.116211,73.65533,0.95,0.0,nan,25.1,50.0625,0.0,0.0,0.0,0.0,0.0,0.0,0.0,0.0,0.0,0.0,0.0,0.0,0.0,0.0,0,0.0,0.0,0.0,0.0,0.0,0.0,0,0,0,0,0,0,0,0,0,0,0,1,1,1,0,125,0,0,0,0
171751563,50.0625,50.0625,0.115784,0.115784,0.115784,73.67578,0.95,0.0,nan,25.1,50.0625,0.0,0.0,0.0,0.0,0.0,0.0,0.0,0.0,0.0,0.0,0.0,0.0,0.0,0.0,0,0.0,0.0,0.0,0.0,0.0,0.0,0,0,0,0,0,0,0,0,0,0,0,1,1,1,0,125,0,0,0,0
172547475,50.0625,50.0625,0.116211,0.116211,0.116211,73.6962,0.95,0.0,nan,25.1,50.0625,0.0,0.0,0.0,0.0,0.0,0.0,0.0,0.0,0.0,0.0,0.0,0.0,0.0,0.0,0,0.0,0.0,0.0,0.0,0.0,0.0,0,0,0,0,0,0,0,0,0,0,0,1,1,1,0,125,0,0,0,0
173345122,50.0625,50.0625,0.1161499,0.1161499,0.1161499,73.71663,0.95,0.0,nan,25.1,50.0625,0.0,0.0,0.0,0.0,0.0,0.0,0.0,0.0,0.0,0.0,0.0,0.0,0.0,0.0,0,0.0,0.0,0.0,0.0,0.0,0.0,0,0,0,0,0,0,0,0,0,0,0,1,1,1,0,125,0,0,0,0
174142776,50.0625,50.0625,0.116333,0.116333,0.116333,73.73709,0.95,0.0,nan,25.1,50.0625,0.0,0.0,0.0,0.0,0.0,0.0,0.0,0.0,0.0,0.0,0.0,0.0,0.0,0.0,0,0.0,0.0,0.0,0.0,0.0,0.0,0,0,0,0,0,0,0,0,0,0,0,1,1,1,0,125,0,0,0,0
174940387,50.0625,50.0625,0.115906,0.115906,0.115906,73.75756,0.95,0.0,nan,25.1,50.0625,0.0,0.0,0.0,0.0,0.0,0.0,0.0,0.0,0.0,0.0,0.0,0.0,0.0,0.0,0,0.0,0.0,0.0,0.0,0.0,0.0,0,0,0,0,0,0,0,0,0,0,0,1,1,1,0,125,0,0,0,0
175738746,50.0625,50.0625,0.115784,0.115784,0.115784,73.77809,0.95,0.0,nan,25.1,50.0625,0.0,0.0,0.0,0.0,0.0,0.0,0.0,0.0,0.0,0.0,0.0,0.0,0.0,0.0,0,0.0,0.0,0.0,0.0,0.0,0.0,0,0,0,0,0,0,0,0,0,0,0,1,1,1,0,125,0,0,0,0
176535660,50.0625,50.0625,0.115662,0.115662,0.115662,73.79855,0.95,0.0,nan,25.1,50.0625,0.0,0.0,0.0,0.0,0.0,0.0,0.0,0.0,0.0,0.0,0.0,0.0,0.0,0.0,0,0.0,0.0,0.0,0.0,0.0,0.0,0,0,0,0,0,0,0,0,0,0,0,1,1,1,0,125,0,0,0,0
177333307,50.0625,50.0625,0.115906,0.115906,0.115906,73.81907,0.95,0.0,nan,25.1,50.0625,0.0,0.0,0.0,0.0,0.0,0.0,0.0,0.0,0.0,0.0,0.0,0.0,0.0,0.0,0,0.0,0.0,0.0,0.0,0.0,0.0,0,0,0,0,0,0,0,0,0,0,0,1,1,1,0,125,0,0,0,0
178131063,50.0625,50.0625,0.115784,0.115784,0.115784,73.83961,0.95,0.0,nan,25.1,50.0625,0.0,0.0,0.0,0.0,0.0,0.0,0.0,0.0,0.0,0.0,0.0,0.0,0.0,0.0,0,0.0,0.0,0.0,0.0,0.0,0.0,0,0,0,0,0,0,0,0,0,0,0,1,1,1,0,125,0,0,0,0
178929568,50.0625,50.0625,0.115845,0.115845,0.115845,73.86018,0.95,0.0,nan,25.1,50.0625,0.0,0.0,0.0,0.0,0.0,0.0,0.0,0.0,0.0,0.0,0.0,0.0,0.0,0.0,0,0.0,0.0,0.0,0.0,0.0,0.0,0,0,0,0,0,0,0,0,0,0,0,1,1,1,0,125,0,0,0,0
179727862,50.0625,50.0625,0.116028,0.116028,0.116028,73.88078,0.95,0.0,nan,25.1,50.0625,0.0,0.0,0.0,0.0,0.0,0.0,0.0,0.0,0.0,0.0,0.0,0.0,0.0,0.0,0,0.0,0.0,0.0,0.0,0.0,0.0,0,0,0,0,0,0,0,0,0,0,0,1,1,1,0,125,0,0,0,0
180524003,50.0625,50.0625,0.115784,0.115784,0.115784,73.9013,0.95,0.0,nan,25.1,50.0625,0.0,0.0,0.0,0.0,0.0,0.0,0.0,0.0,0.0,0.0,0.0,0.0,0.0,0.0,0,0.0,0.0,0.0,0.0,0.0,0.0,0,0,0,0,0,0,0,0,0,0,0,1,1,1,0,125,0,0,0,0
181322480,50.0625,50.0625,0.116394,0.116394,0.116394,73.92201,0.95,0.0,nan,25.1,50.0625,0.0,0.0,0.0,0.0,0.0,0.0,0.0,0.0,0.0,0.0,0.0,0.0,0.0,0.0,0,0.0,0.0,0.0,0.0,0.0,0.0,0,0,0,0,0,0,0,0,0,0,0,1,1,1,0,125,0,0,0,0
182119125,50.0625,50.0625,0.116211,0.116211,0.116211,73.94264,0.95,0.0,nan,25.1,50.0625,0.0,0.0,0.0,0.0,0.0,0.0,0.0,0.0,0.0,0.0,0.0,0.0,0.0,0.0,0,0.0,0.0,0.0,0.0,0.0,0.0,0,0,0,0,0,0,0,0,0,0,0,1,1,1,0,125,0,0,0,0
182916760,50.0625,50.0625,0.116211,0.116211,0.116211,73.96332,0.95,0.0,nan,25.1,50.0625,0.0,0.0,0.0,0.0,0.0,0.0,0.0,0.0,0.0,0.0,0.0,0.0,0.0,0.0,0,0.0,0.0,0.0,0.0,0.0,0.0,0,0,0,0,0,0,0,0,0,0,0,1,1,1,0,125,0,0,0,0
183715120,50.0625,50.0625,0.116272,0.116272,0.116272,73.98399,0.95,0.0,nan,25.1,50.0625,0.0,0.0,0.0,0.0,0.0,0.0,0.0,0.0,0.0,0.0,0.0,0.0,0.0,0.0,0,0.0,0.0,0.0,0.0,0.0,0.0,0,0,0,0,0,0,0,0,0,0,0,1,1,1,0,125,0,0,0,0
184512035,50.0625,50.0625,0.116638,0.116638,0.116638,74.00465,0.95,0.0,nan,25.1,50.0625,0.0,0.0,0.0,0.0,0.0,0.0,0.0,0.0,0.0,0.0,0.0,0.0,0.0,0.0,0,0.0,0.0,0.0,0.0,0.0,0.0,0,0,0,0,0,0,0,0,0,0,0,1,1,1,0,125,0,0,0,0
185309673,50.0625,50.0625,0.116699,0.116699,0.116699,74.02534,0.95,0.0,nan,24.85,50.0625,0.0,0.0,0.0,0.0,0.0,0.0,0.0,0.0,0.0,0.0,0.0,0.0,0.0,0.0,0,0.0,0.0,0.0,0.0,0.0,0.0,0,0,0,0,0,0,0,0,0,0,0,1,1,1,0,125,0,0,0,0
186107322,50.0625,50.0625,0.116699,0.116699,0.116699,74.0461,0.95,0.0,nan,24.85,50.0625,0.0,0.0,0.0,0.0,0.0,0.0,0.0,0.0,0.0,0.0,0.0,0.0,0.0,0.0,0,0.0,0.0,0.0,0.0,0.0,0.0,0,0,0,0,0,0,0,0,0,0,0,1,1,1,0,125,0,0,0,0
186904954,50.0625,50.0625,0.117065,0.117065,0.117065,74.06688,0.95,0.0,nan,24.85,50.0625,0.0,0.0,0.0,0.0,0.0,0.0,0.0,0.0,0.0,0.0,0.0,0.0,0.0,0.0,0,0.0,0.0,0.0,0.0,0.0,0.0,0,0,0,0,0,0,0,0,0,0,0,1,1,1,0,125,0,0,0,0
187703322,50.0625,50.0625,0.116638,0.116638,0.116638,74.08767,0.95,0.0,nan,24.85,50.0625,0.0,0.0,0.0,0.0,0.0,0.0,0.0,0.0,0.0,0.0,0.0,0.0,0.0,0.0,0,0.0,0.0,0.0,0.0,0.0,0.0,0,0,0,0,0,0,0,0,0,0,0,1,1,1,0,125,0,0,0,0
188500694,50.0625,50.0625,0.116577,0.116577,0.116577,74.10845,0.95,0.0,nan,24.85,50.0625,0.0,0.0,0.0,0.0,0.0,0.0,0.0,0.0,0.0,0.0,0.0,0.0,0.0,0.0,0,0.0,0.0,0.0,0.0,0.0,0.0,0,0,0,0,0,0,0,0,0,0,0,1,1,1,0,125,0,0,0,0
189497280,50.0625,50.0625,0.116455,0.116455,0.116455,74.13347,0.96,0.0,nan,24.85,50.0625,0.0,0.0,0.0,0.0,0.0,0.0,0.0,0.0,0.0,0.0,0.0,0.0,0.0,0.0,0,0.0,0.0,0.0,0.0,0.0,0.0,0,0,0,0,0,0,0,0,0,0,0,1,1,1,0,125,0,0,0,0
190295381,50.0625,50.0625,0.116272,0.116272,0.116272,74.15425,0.96,0.0,nan,24.85,50.0625,0.0,0.0,0.0,0.0,0.0,0.0,0.0,0.0,0.0,0.0,0.0,0.0,0.0,0.0,0,0.0,0.0,0.0,0.0,0.0,0.0,0,0,0,0,0,0,0,0,0,0,0,1,1,1,0,125,0,0,0,0